Datafile: Demo6Waveforms, Trai: 5, Chan:1
Time (microsec)	Amplitude (mV)
0.000	0.049
0.600	0.107
1.200	0.012
1.800	-0.314
2.400	-0.585
3.000	-0.268
3.600	0.603
4.200	1.236
4.800	0.862
5.400	-0.365
6.000	-1.388
6.600	-1.291
7.200	-0.082
7.800	1.477
8.400	2.235
9.000	1.084
9.600	-1.903
10.200	-4.893
10.800	-5.005
11.400	-1.175
12.000	4.622
12.600	8.625
13.200	7.989
13.800	2.777
14.400	-3.745
15.000	-7.861
15.600	-7.733
16.200	-4.335
16.800	-0.021
17.400	2.834
18.000	3.264
18.600	2.025
19.200	0.782
19.800	0.776
20.400	1.562
21.000	1.626
21.600	0.311
22.200	-1.300
22.800	-1.711
23.400	-0.664
24.000	0.789
24.600	1.422
25.200	0.785
25.800	-0.883
26.400	-2.719
27.000	-3.407
27.600	-2.149
28.200	0.429
28.800	2.475
29.400	2.557
30.000	0.983
30.600	-0.384
31.200	-0.143
31.800	1.400
32.400	2.521
33.000	1.760
33.600	-0.910
34.200	-4.131
34.800	-5.809
35.400	-4.113
36.000	0.639
36.600	6.031
37.200	8.762
37.800	6.628
38.400	0.737
39.000	-5.483
39.600	-8.698
40.200	-7.666
40.800	-3.766
41.400	0.703
42.000	3.943
42.600	5.191
43.200	4.689
43.800	3.255
44.400	1.711
45.000	0.216
45.600	-1.547
46.200	-3.611
46.800	-5.182
47.400	-4.853
48.000	-2.058
48.600	2.058
49.200	5.477
49.800	6.500
50.400	4.661
51.000	0.980
51.600	-2.777
52.200	-5.030
52.800	-5.081
53.400	-3.319
54.000	-0.907
54.600	1.047
55.200	2.122
55.800	2.588
56.400	2.749
57.000	2.466
57.600	1.346
58.200	-0.612
58.800	-2.652
59.400	-3.580
60.000	-2.749
60.600	-0.542
61.200	1.888
61.800	3.407
62.400	3.373
63.000	1.815
63.600	-0.585
64.200	-2.746
64.800	-3.745
65.400	-3.227
66.000	-1.522
66.600	0.594
67.200	2.451
67.800	3.510
68.400	3.523
69.000	2.451
69.600	0.575
70.200	-1.528
70.800	-3.188
71.400	-3.943
72.000	-3.629
72.600	-2.262
73.200	-0.006
73.800	2.551
74.400	4.451
75.000	4.646
75.600	2.886
76.200	0.049
76.800	-2.500
77.400	-3.650
78.000	-3.069
78.600	-1.257
79.200	0.715
79.800	1.836
80.400	1.656
81.000	0.591
81.600	-0.435
82.200	-0.743
82.800	-0.396
83.400	-0.027
84.000	-0.170
84.600	-0.658
85.200	-0.828
85.800	-0.195
86.400	1.026
87.000	2.137
87.600	2.460
88.200	1.632
88.800	-0.189
89.400	-2.274
90.000	-3.656
90.600	-3.526
91.200	-1.808
91.800	0.624
92.400	2.603
93.000	3.379
93.600	2.886
94.200	1.629
94.800	0.195
95.400	-1.035
96.000	-1.863
96.600	-2.229
97.200	-2.061
97.800	-1.367
98.400	-0.237
99.000	1.072
99.600	2.125
100.200	2.329
100.800	1.400
101.400	-0.225
102.000	-1.653
102.600	-2.095
103.200	-1.446
103.800	-0.247
104.400	0.798
105.000	1.291
105.600	1.263
106.200	0.947
106.800	0.557
107.400	0.140
108.000	-0.323
108.600	-0.892
109.200	-1.404
109.800	-1.541
110.400	-0.986
111.000	0.131
111.600	1.260
112.200	1.790
112.800	1.449
113.400	0.505
114.000	-0.548
114.600	-1.349
115.200	-1.711
115.800	-1.510
116.400	-0.725
117.000	0.420
117.600	1.513
118.200	2.122
118.800	2.089
119.400	1.464
120.000	0.463
120.600	-0.682
121.200	-1.693
121.800	-2.256
122.400	-2.192
123.000	-1.583
123.600	-0.615
124.200	0.463
124.800	1.431
125.400	2.025
126.000	2.019
126.600	1.324
127.200	0.210
127.800	-0.856
128.400	-1.404
129.000	-1.245
129.600	-0.578
130.200	0.198
130.800	0.655
131.400	0.582
132.000	0.067
132.600	-0.551
133.200	-0.883
133.800	-0.731
134.400	-0.161
135.000	0.542
135.600	1.099
136.200	1.334
136.800	1.166
137.400	0.648
138.000	-0.055
138.600	-0.752
139.200	-1.285
139.800	-1.556
140.400	-1.513
141.000	-1.108
141.600	-0.365
142.200	0.521
142.800	1.282
143.400	1.665
144.000	1.550
144.600	0.999
145.200	0.295
145.800	-0.311
146.400	-0.645
147.000	-0.737
147.600	-0.682
148.200	-0.566
148.800	-0.411
149.400	-0.170
150.000	0.107
150.600	0.353
151.200	0.445
151.800	0.277
152.400	-0.116
153.000	-0.515
153.600	-0.645
154.200	-0.384
154.800	0.143
155.400	0.667
156.000	0.907
156.600	0.737
157.200	0.274
157.800	-0.225
158.400	-0.518
159.000	-0.539
159.600	-0.356
160.200	-0.113
160.800	0.104
161.400	0.237
162.000	0.283
162.600	0.283
163.200	0.237
163.800	0.104
164.400	-0.146
165.000	-0.487
165.600	-0.764
166.200	-0.825
166.800	-0.575
167.400	-0.067
168.000	0.527
168.600	0.980
169.200	1.090
169.800	0.862
170.400	0.423
171.000	-0.027
171.600	-0.390
172.200	-0.630
172.800	-0.709
173.400	-0.667
174.000	-0.505
174.600	-0.222
175.200	0.107
175.800	0.435
176.400	0.645
177.000	0.630
177.600	0.368
178.200	-0.037
178.800	-0.402
179.400	-0.585
180.000	-0.515
180.600	-0.241
181.200	0.100
181.800	0.423
182.400	0.618
183.000	0.627
183.600	0.411
184.200	0.003
184.800	-0.466
185.400	-0.843
186.000	-0.959
186.600	-0.725
187.200	-0.180
187.800	0.469
188.400	0.971
189.000	1.087
189.600	0.789
190.200	0.231
190.800	-0.323
191.400	-0.685
192.000	-0.740
192.600	-0.548
193.200	-0.222
193.800	0.061
194.400	0.237
195.000	0.323
195.600	0.381
196.200	0.384
196.800	0.271
197.400	-0.015
198.000	-0.417
198.600	-0.752
199.200	-0.834
199.800	-0.557
200.400	0.006
201.000	0.648
201.600	1.114
202.200	1.221
202.800	0.922
203.400	0.311
204.000	-0.387
204.600	-0.962
205.200	-1.236
205.800	-1.151
206.400	-0.715
207.000	-0.076
207.600	0.545
208.200	0.919
208.800	0.935
209.400	0.636
210.000	0.183
210.600	-0.244
211.200	-0.502
211.800	-0.542
212.400	-0.381
213.000	-0.091
213.600	0.198
214.200	0.426
214.800	0.490
215.400	0.359
216.000	0.030
216.600	-0.396
217.200	-0.725
217.800	-0.773
218.400	-0.445
219.000	0.113
219.600	0.664
220.200	0.953
220.800	0.874
221.400	0.475
222.000	-0.067
222.600	-0.560
223.200	-0.834
223.800	-0.816
224.400	-0.557
225.000	-0.189
225.600	0.174
226.200	0.457
226.800	0.612
227.400	0.621
228.000	0.481
228.600	0.222
229.200	-0.107
229.800	-0.417
230.400	-0.636
231.000	-0.664
231.600	-0.460
232.200	-0.052
232.800	0.426
233.400	0.776
234.000	0.822
234.600	0.511
235.200	-0.052
235.800	-0.630
236.400	-0.956
237.000	-0.871
237.600	-0.399
238.200	0.250
238.800	0.789
239.400	0.974
240.000	0.761
240.600	0.244
241.200	-0.350
241.800	-0.795
242.400	-0.922
243.000	-0.685
243.600	-0.210
244.200	0.326
244.800	0.712
245.400	0.828
246.000	0.658
246.600	0.301
247.200	-0.104
247.800	-0.414
248.400	-0.569
249.000	-0.578
249.600	-0.466
250.200	-0.292
250.800	-0.043
251.400	0.262
252.000	0.533
252.600	0.691
253.200	0.624
253.800	0.329
254.400	-0.143
255.000	-0.582
255.600	-0.816
256.200	-0.749
256.800	-0.384
257.400	0.088
258.000	0.505
258.600	0.712
259.200	0.682
259.800	0.463
260.400	0.134
261.000	-0.183
261.600	-0.423
262.200	-0.542
262.800	-0.521
263.400	-0.371
264.000	-0.128
264.600	0.143
265.200	0.344
265.800	0.423
266.400	0.365
267.000	0.204
267.600	0.012
268.200	-0.143
268.800	-0.231
269.400	-0.241
270.000	-0.158
270.600	-0.046
271.200	0.100
271.800	0.192
272.400	0.222
273.000	0.152
273.600	-0.003
274.200	-0.186
274.800	-0.314
275.400	-0.326
276.000	-0.195
276.600	0.003
277.200	0.195
277.800	0.323
278.400	0.353
279.000	0.301
279.600	0.192
280.200	0.055
280.800	-0.100
281.400	-0.244
282.000	-0.353
282.600	-0.399
283.200	-0.347
283.800	-0.195
284.400	0.012
285.000	0.228
285.600	0.359
286.200	0.384
286.800	0.317
287.400	0.183
288.000	0.027
288.600	-0.110
289.200	-0.192
289.800	-0.231
290.400	-0.210
291.000	-0.146
291.600	-0.070
292.200	0.000
292.800	0.046
293.400	0.070
294.000	0.091
294.600	0.094
295.200	0.088
295.800	0.061
296.400	0.018
297.000	-0.012
297.600	-0.030
298.200	-0.018
298.800	-0.009
299.400	0.000
300.000	-0.021
300.600	-0.040
301.200	-0.079
301.800	-0.082
302.400	-0.058
303.000	0.003
303.600	0.073
304.200	0.119
304.800	0.107
305.400	0.067
306.000	-0.006
306.600	-0.064
